<Bundle xmlns="http://hl7.org/fhir">
	<id value="bundle-dental-referral-usecase-example-3"/> 
	<!--    this example bundle is a document    -->
	<meta> 
		<lastUpdated value="2014-08-18T01:43:30Z"/> 
	</meta>  
	<type value="document"/>   
	<total value="1"/> 
	<entry> 
		<Composition xmlns="http://hl7.org/fhir">
			<id value="CCDA-on-FHIR-Dental-Referral-Note-Example"/>
			<meta>
				<versionId value="1"/>
				<lastUpdated value="2020-02-11T23:10:09.350+00:00"/>
				<source value="#6d3bLpKzRmQOIdBc"/>
				<profile value="http://hl7.org/fhir/us/ccda-r4/StructureDefinition/CCDA-on-FHIR-Referral-Note"/>
			</meta>
			<language value="en-US"/>			
			<identifier>
				<system value="urn:ietf:rfc:3986"/>
				<value value="1"/>
			</identifier>
			<status value="preliminary"/>
			<type>
				<coding>
					<system value="http://loinc.org"/>
					<code value="57133-1"/>
					<display value="Referral Note"/>
				</coding>
			</type>
			<subject>
				<reference value="Patient/example-dental"/>
				<display value="Patient A"/>
			</subject>
			<date value="2020-03-15T09:10:14Z"/>
			<author>
				<reference value="PractitionerRole/PractitionerRole-D"/>
				<display value="Dr. John D, MD"/>
			</author>
			<title value="Dental to Endodontist Referral Note"/>
			<attester>
				<mode value="legal"/>
				<time value="2020-03-15T09:10:14Z"/>
				<party>
					<reference value="PractitionerRole/PractitionerRole-D"/>
					<display value="Dr. John D, MD"/>
				</party>
			</attester>
			<custodian>
				<reference value="Organization/GOHC-organization"/>
				<display value="Good Oral Health Clinic"/>
			</custodian>
			<section>
				<title value="Allergies and Intolerances Section"/>
				<code>
					<coding>
						<system value="http://loinc.org"/>
						<code value="48765-2"/>
						<display value="Allergies and adverse reactions Document"/>
					</coding>
				</code>
				<text>
					<status value="generated"/>
					<div xmlns="http://www.w3.org/1999/xhtml">
						<table>
							<tr>
								<td>
									<b>Allergen</b>
								</td>
								<td>
									<b>Code</b>
								</td>
								<td>
									<b>Manifestation</b>
								</td>
								<td>
									<b>Severity</b>
								</td>
							</tr>
							<tr>
								<td>Penicillin G</td>
								<td>7908</td>
								<td>Skin rash</td>
								<td>mild</td>
							</tr>
						</table>
					</div>
				</text>
				<entry>
					<reference value="AllergyIntolerance/Allergy-example-dental"/>
				</entry>
			</section>
			<section>
				<title value="Advance Directives Section"/>
				<code>
					<coding>
						<system value="http://loinc.org"/>
						<code value="42348-3"/>
						<display value="Advance directives"/>
					</coding>
				</code>
				<text>
					<status value="generated"/>
					<div xmlns="http://www.w3.org/1999/xhtml">
						<table>
							<tr>
								<td>
									<b>Name</b>
								</td>
								<td>
									<b>Applies Period</b>
								</td>
							</tr>
							<tr>
								<td>Resuscitation</td>
								<td>2015/01/01 - 2016/12/31</td>
							</tr>
						</table>
					</div>
				</text>
			</section>
			<section>
				<title value="Assessment Section"/>
				<code>
					<coding>
						<system value="http://loinc.org"/>
						<code value="51848-0"/>
						<display value="Evaluation note"/>
					</coding>
				</code>
				<text>
					<status value="generated"/>
					<div xmlns="http://www.w3.org/1999/xhtml">
						<p>Intraoral findings:  On exam of the right lower quadrant, tooth #30 was sensitive to percussion (lingering for 45 seconds) and to cold (sharp, stops when cold removed). No sensitivity to palpation, Radiographic pain upon biting; with relief upon opening. No evidence of new caries on distal; missing #28, replaced with endo implant; #32 impacted with apparent full boney. One cm swelling present on buccal gingivae around #29 and #30 with sinus tract present #30B. </p>
						<p>Paraoral findings: 2 small, mobile lymph nodes found in right submandibular area.</p>
					</div>
				</text>
			</section>
			<section>
				<title value="Family History Section"/>
				<code>
					<coding>
						<system value="http://loinc.org"/>
						<code value="10157-6"/>
						<display value="History of family member diseases Narrative"/>
					</coding>
				</code>
				<text>
					<status value="generated"/>
					<div xmlns="http://www.w3.org/1999/xhtml">
						<table>
							<tr>
								<td>
									<b>Relationship</b>
								</td>
								<td>
									<b>Diagnosis</b>
								</td>
								<td>
									<b>Age at Onset</b>
								</td>
							</tr>
							<tr>
								<td>Father</td>
								<td>Myocardial Infarction(cause of Death)</td>
								<td>57</td>
							</tr>
							<tr>
								<td>Father</td>
								<td>Diabetes</td>
								<td>40</td>
							</tr>
						</table>
					</div>
				</text>
			</section>
			<section>
				<title value="Past Medical History Section"/>
				<code>
					<coding>
						<system value="http://loinc.org"/>
						<code value="11348-0"/>
						<display value="History of Past illness Narrative"/>
					</coding>
				</code>
				<text>
					<status value="generated"/>
					<div xmlns="http://www.w3.org/1999/xhtml">
						<p>See History of Present Illness</p>
					</div>
				</text>
			</section>
			<section>
				<title value="History of Present Illness Section"/>
				<code>
					<coding>
						<system value="http://loinc.org"/>
						<code value="10164-2"/>
						<display value="History of Present illness Narrative"/>
					</coding>
				</code>
				<text>
					<status value="generated"/>
					<div xmlns="http://www.w3.org/1999/xhtml">
						<p>Patient A said the pain started 2 weeks ago and has progressively worsened. </p>
						<p>He noticed sharp, stabbing pain provoked by drinking cold beverages in the past week and lingering pain with biting in the last 2 days. </p>
						<p>He is able to eat regular food but only chews on the left side. </p>
						<p>He takes 400 mg ibuprofen every 8 hours for pain. </p>
						<p>His last doses was 2 hours prior to this visit. </p>
					</div>
				</text>
			</section>
			<section>
				<title value="Social History Section"/>
				<code>
					<coding>
						<system value="http://loinc.org"/>
						<code value="29762-2"/>
						<display value="Social history Narrative"/>
					</coding>
				</code>
				<text>
					<status value="generated"/>
					<div xmlns="http://www.w3.org/1999/xhtml">
						<table>
							<tr>
								<td>
									<b>Social History Element</b>
								</td>
								<td>
									<b>Description</b>
								</td>
								<td>
									<b>Effective Dates</b>
								</td>
							</tr>
							<tr>
								<td>Smoking</td>
								<td>1 pack tobacco per day</td>
								<td>2005/05/01 - 2010/02/28</td>
							</tr>
						</table>
					</div>
				</text>
			</section>
			<section>
				<title value="General Status Section"/>
				<code>
					<coding>
						<system value="http://loinc.org"/>
						<code value="10210-3"/>
						<display value="Physical findings of General status Narrative"/>
					</coding>
				</code>
				<text>
					<status value="generated"/>
					<div xmlns="http://www.w3.org/1999/xhtml">
						<p>Good, except for reporting pain in lower RQ</p>
					</div>
				</text>
			</section>
			<section>
				<title value="Functional Status Section"/>
				<code>
					<coding>
						<system value="http://loinc.org"/>
						<code value="47420-5"/>
						<display value="Functional status assessment note"/>
					</coding>
				</code>
				<text>
					<status value="generated"/>
					<div xmlns="http://www.w3.org/1999/xhtml">
						<table>
							<tr>
								<td>
									<b>Functional or Cognitive Finding</b>
								</td>
								<td>
									<b>Observation</b>
								</td>
								<td>
									<b>Observation Date</b>
								</td>
								<td>
									<b>Condition Status</b>
								</td>
							</tr>
							<tr>
								<td>Ambulation (Dependent to Independent</td>
								<td>Independently able</td>
								<td>2010/03/11</td>
								<td>Active</td>
							</tr>
							<tr>
								<td>Finding of Functional Performance and Activity</td>
								<td>Dyspnea</td>
								<td>2008/02/16</td>
								<td>Active</td>
							</tr>
							<tr>
								<td>Cognitive Function Finding</td>
								<td>Memory Impairment</td>
								<td>2014/04/29</td>
								<td>Active</td>
							</tr>
						</table>
					</div>
				</text>
			</section>
			<section>
				<title value="Mental Status Section"/>
				<code>
					<coding>
						<system value="http://loinc.org"/>
						<code value="10190-7"/>
						<display value="Mental status"/>
					</coding>
				</code>
				<text>
					<status value="generated"/>
					<div xmlns="http://www.w3.org/1999/xhtml">
						<table border="1" width="100%">
							<thead>
								<tr>
									<td>
										<b>Mental Status Findings</b>
									</td>
									<td>
										<b>Effective Dates</b>
									</td>
									<td>
										<b>Condition Status</b>
									</td>
								</tr>
							</thead>
							<tr>
								<td>Mental Function</td>
								<td>July 31, 2018</td>
								<td>Impaired</td>
							</tr>
							<tr>
								<td>Cognitive Abilities</td>
								<td>July 31, 2018</td>
								<td>Judgement, Intact</td>
							</tr>
							<tr>
								<td>Cognitive Function</td>
								<td>July 31, 2018</td>
								<td>Aggressive Behavior</td>
							</tr>
							<tr>
								<td>Cognitive Function</td>
								<td>July 31, 2019</td>
								<td>Difficulty understanding own emotions</td>
							</tr>
							<tr>
								<td>Cognitive Function</td>
								<td>July 31, 2019</td>
								<td>Difficulty communicating Thoughts </td>
							</tr>
						</table>
					</div>
				</text>
			</section>
			<section>
				<title value="Immunizations Section"/>
				<code>
					<coding>
						<system value="http://loinc.org"/>
						<code value="11369-6"/>
						<display value="History of Immunization Narrative"/>
					</coding>
				</code>
				<text>
					<status value="generated"/>
					<div xmlns="http://www.w3.org/1999/xhtml">
						<table>
							<tr>
								<td>
									<b>Vaccine</b>
								</td>
								<td>
									<b>Date</b>
								</td>
								<td>
									<b>Status</b>
								</td>
							</tr>
							<tr>
								<td>Fluvax (Influenza)</td>
								<td>2020-01-05</td>
								<td>Completed</td>
							</tr>
						</table>
					</div>
				</text>
			</section>
			<section>
				<title value="Nutrition Section"/>
				<code>
					<coding>
						<system value="http://loinc.org"/>
						<code value="61144-2"/>
						<display value="Diet and nutrition Narrative"/>
					</coding>
				</code>
				<text>
					<status value="generated"/>
					<div xmlns="http://www.w3.org/1999/xhtml">
						<table>
							<tr>
								<td>
									<b>Date</b>
								</td>
								<td>
									<b>Nutritional Status</b>
								</td>
								<td>
									<b>Diet</b>
								</td>
							</tr>
							<tr>
								<td>2005/12/29</td>
								<td>Well nourished</td>
								<td>Low sodium diet, excessive carbohydrate</td>
							</tr>
							<tr>
								<td>2010/05/26</td>
								<td>Slight dehydration</td>
								<td>High protein, low fibre</td>
							</tr>
						</table>
					</div>
				</text>
			</section>
			<section>
				<title value="Results Section"/>
				<code>
					<coding>
						<system value="http://loinc.org"/>
						<code value="30954-2"/>
						<display value="Relevant diagnostic tests/laboratory data Narrative"/>
					</coding>
				</code>
				<text>
					<status value="generated"/>
					<div xmlns="http://www.w3.org/1999/xhtml">
						<table>
							<tr>
								<td>
									<b>Result Type</b>
								</td>
								<td>
									<b>Detail</b>
								</td>
								<td>
									<b>Date</b>
								</td>
								<td>
									<b>Status</b>
								</td>
							</tr>
							<tr>
								<td>Radiographs</td>
								<td>Panoramic radiograph (D0330) exposed. Radiographic results showed #32 full bony impaction, #28 endosteal (root form) implant with full crown restoration, and tooth #30 with small PA lesion mesial root. Radiographic caries lesion #29 distal caries lesion (ADA Caries Classification System moderate caries lesion). Other WNL</td>
								<td>2020/03/15</td>
								<td>Final</td>
							</tr>
						</table>
					</div>
				</text>
				<entry>
					<reference value="ImagingStudy/dental-radiograph-example"/>
				</entry>
			</section>
			<section>
				<title value="Reason for Referral Section"/>
				<code>
					<coding>
						<system value="http://loinc.org"/>
						<code value="42349-1"/>
						<display value="Reason for referral (narrative)"/>
					</coding>
				</code>
				<text>
					<status value="generated"/>
					<div xmlns="http://www.w3.org/1999/xhtml">
						<p>Referral to endodontist for evaluation of #30 and endodontic therapy #30.  Referral includes medications prescribed, diagnosis, prognosis, treatment notes, images, and follow up recommendations to be sent from Dentist to Endodontist</p>
						<p>Suspect irreversible pulpitis with necrotic pulp and periapical pathosis. Tooth is restorable despite possible incomplete fracture DB cusp #30.</p>
					</div>
				</text>
				<entry>
					<reference value="ServiceRequest/example-dental-referral"/>
				</entry>
			</section>
			<section>
				<title value="Medication Section"/>
				<code>
					<coding>
						<system value="http://loinc.org"/>
						<code value="10160-0"/>
						<display value="History of Medication use Narrative"/>
					</coding>
				</code>
				<text>
					<status value="generated"/>
					<div xmlns="http://www.w3.org/1999/xhtml">
						<table>
							<tr>
								<td>
									<b>Medication</b>
								</td>
								<td>
									<b>Directions</b>
								</td>
								<td>
									<b>Start Date</b>
								</td>
								<td>
									<b>Status</b>
								</td>
								<td>
									<b>Indications</b>
								</td>
								<td>
									<b>Fill Instructions</b>
								</td>
							</tr>
							<tr>
								<td>Proventil HFA 90 mcg/actuat MDI Inhaler</td>
								<td>2 puffs  every two to four hours as needed for wheezing</td>
								<td>20160401</td>
								<td>Active</td>
								<td>asthma</td>
								<td>Generic substitution allowed</td>
							</tr>
						</table>
					</div>
				</text>
				<entry>
					<reference value="MedicationRequest/dental-medreq-2"/>
				</entry>
			</section>
			<section>
				<title value="Medical Equipment Section"/>
				<code>
					<coding>
						<system value="http://loinc.org"/>
						<code value="46264-8"/>
						<display value="History of medical device use"/>
					</coding>
				</code>
				<text>
					<status value="generated"/>
					<div xmlns="http://www.w3.org/1999/xhtml">
						<table>
							<tr>
								<td>
									<b>Supply/Device</b>
								</td>
								<td>
									<b>Date Supplied</b>
								</td>
							</tr>
							<tr>
								<td>Retainer</td>
								<td>2012/11/16</td>
							</tr>
						</table>
					</div>
				</text>
			</section>
			<section>
				<title value="Plan of Treatment Section"/>
				<code>
					<coding>
						<system value="http://loinc.org"/>
						<code value="18776-5"/>
						<display value="Plan of care note"/>
					</coding>
				</code>
				<text>
					<status value="generated"/>
					<div xmlns="http://www.w3.org/1999/xhtml">
						<table>
							<tr>
								<td>
									<b>Planned Activity</b>
								</td>
								<td>
									<b>Period</b>
								</td>
								<td>
									<b>Status</b>
								</td>
							</tr>
							<tr>
								<td>Referral to Endodontist</td>
								<td>2020/04/16</td>
								<td>Completed</td>
							</tr>
						</table>
					</div>
				</text>
				<entry>
					<reference value="RiskAssessment/dental-riskexample"/>
				</entry>
			</section>
			<section>
				<title value="Problem Section"/>
				<code>
					<coding>
						<system value="http://loinc.org"/>
						<code value="11450-4"/>
						<display value="Problem list - Reported"/>
					</coding>
				</code>
				<text>
					<status value="generated"/>
					<div xmlns="http://www.w3.org/1999/xhtml">
						<table>
							<tr>
								<td>
									<b>Problem Name</b>
								</td>
								<td>
									<b>Type</b>
								</td>
								<td>
									<b>Onset Date</b>
								</td>
								<td>
									<b>Abatement Date</b>
								</td>
								<td>
									<b>Status</b>
								</td>
							</tr>
							<tr>
								<td>Entire permanent mandibular right first molar tooth (body structure); tooth number 30</td>
								<td>Condition</td>
								<td>2019-04-01</td>
								<td>2016-04-14</td>
								<td>Active</td>
							</tr>
							<tr>
								<td>Dental caries lesion, #29</td>
								<td>Condition</td>
								<td>2019-04-01</td>
								<td>2016-04-14</td>
								<td>Active</td>
							</tr>
						</table>
					</div>
				</text>
				<entry>
					<reference value="Condition/example-2"/>
				</entry>
				<entry>
					<reference value="Condition/example-3"/>
				</entry>
			</section>
			<section>
				<title value="Procedures Section"/>
				<code>
					<coding>
						<system value="http://loinc.org"/>
						<code value="47519-4"/>
						<display value="History of Procedures Document"/>
					</coding>
				</code>
				<text>
					<status value="generated"/>
					<div xmlns="http://www.w3.org/1999/xhtml">
						<table>
							<tr>
								<td>
									<b>Procedure Name</b>
								</td>
								<td>
									<b>Body Site</b>
								</td>
								<td>
									<b>Performer</b>
								</td>
								<td>
									<b>Date Performed</b>
								</td>
							</tr>
							<tr>
								<td>four or more surfaces, primary or permanent</td>
								<td>mouth</td>
								<td>Dr. John Dentist</td>
								<td>20190405</td>
							</tr>
						</table>
					</div>
				</text>
				<entry>
					<reference value="Procedure/MOBD-amalgam-restoration"/>
				</entry>
			</section>
			<section>
				<title value="Results Section"/>
				<code>
					<coding>
						<system value="http://loinc.org"/>
						<code value="30954-2"/>
						<display value="Relevant diagnostic tests/laboratory data Narrative"/>
					</coding>
				</code>
				<text>
					<status value="generated"/>
					<div xmlns="http://www.w3.org/1999/xhtml">
						<table>
							<tr>
								<td>
									<b>Test</b>
								</td>
								<td>
									<b>Result Observation Value</b>
								</td>
								<td>
									<b>Date</b>
								</td>
								<td>
									<b>Status</b>
								</td>
							</tr>
							<tr>
								<td>EPT #30</td>
								<td>non-responsive</td>
								<td>2020/03/15</td>
								<td>Final</td>
							</tr>
							<tr>
								<td>EPT #29</td>
								<td>positive</td>
								<td>2020/03/15</td>
								<td>Final</td>
							</tr>
							<tr>
								<td>EPT #31</td>
								<td>positive</td>
								<td>2020/03/15</td>
								<td>Final</td>
							</tr>
							<tr>
								<td>Cold Test #30</td>
								<td>Sharp, lingering for 15 seconds</td>
								<td>2020/03/15</td>
								<td>Final</td>
							</tr>
							<tr>
								<td>Palpatio</td>
								<td>No sensitivity to palpatio</td>
								<td>2020/03/15</td>
								<td>Final</td>
							</tr>
							<tr>
								<td>Biting pain</td>
								<td>Radiographic pain upon biting; with relief upon opening</td>
								<td>2020/03/15</td>
								<td>Final</td>
							</tr>
							<tr>
								<td>New carries evidence on distal</td>
								<td>None</td>
								<td>2020/03/15</td>
								<td>Final</td>
							</tr>
							<tr>
								<td>Missing teeth</td>
								<td>#28 - replaced with endosteal (root form) implant</td>
								<td>2020/03/15</td>
								<td>Final</td>
							</tr>
							<tr>
								<td>Impaction</td>
								<td>#32 impacted with apparent bull boney</td>
								<td>2020/03/15</td>
								<td>Final</td>
							</tr>
														<tr>
								<td>Swelling</td>
								<td>One cm swelling present on buccal gingivae around #29 and #30 with sinus tract present #30B</td>
								<td>2020/03/15</td>
								<td>Final</td>
							</tr>
														<tr>
								<td>Other observations</td>
								<td>2 small, mobile lymph nodes found in right submandibular area</td>
								<td>2020/03/15</td>
								<td>Final</td>
							</tr>
						</table>
					</div>
				</text>
			</section>
			<section>
				<title value="Vital Signs Section"/>
				<code>
					<coding>
						<system value="http://loinc.org"/>
						<code value="8716-3"/>
						<display value="Vital signs"/>
					</coding>
				</code>
				<text>
					<status value="generated"/>
					<div xmlns="http://www.w3.org/1999/xhtml">
						<table>
							<tr>
								<td>
									<b>Vital Sign</b>
								</td>
								<td>
									<b>Date</b>
								</td>
								<td>
									<b>Value</b>
								</td>
							</tr>
							<tr>
								<td>Blood Pressure</td>
								<td>2020/04/15</td>
								<td>130/86</td>
							</tr>
							<tr>
								<td>Pulse</td>
								<td>2020/04/15</td>
								<td>92</td>
							</tr>
						</table>
					</div>
				</text>
				<entry>
					<reference value="Observation/heart-rate"/>
				</entry>
				<entry>
					<reference value="Observation/blood-pressure-dental"/>
				</entry>
			</section>
		</Composition>
	</entry>
	<entry>
		<Patient xmlns="http://hl7.org/fhir">
			<id value="example-dental"/>
			<meta>
				<profile value="http://hl7.org/fhir/us/core/StructureDefinition/us-core-patient"/>
			</meta>
			<status value="generated"/>
			<extension url="http://hl7.org/fhir/us/core/StructureDefinition/us-core-race">
				<extension url="ombCategory">
					<valueCoding>
						<system value="urn:oid:2.16.840.1.113883.6.238"/>
						<code value="2106-3"/>
						<display value="White"/>
					</valueCoding>
				</extension>

				<extension url="detailed">
					<valueCoding>
						<system value="urn:oid:2.16.840.1.113883.6.238"/>
						<code value="1516-4"/>
						<display value="Zuni"/>
					</valueCoding>
				</extension>
				<extension url="text">
					<valueString value="Mixed"/>
				</extension>
			</extension>
			<extension url="http://hl7.org/fhir/us/core/StructureDefinition/us-core-ethnicity">
				<extension url="ombCategory">
					<valueCoding>
						<system value="urn:oid:2.16.840.1.113883.6.238"/>
						<code value="2135-2"/>
						<display value="Hispanic or Latino"/>
					</valueCoding>
				</extension>
			</extension>
			<extension url="http://hl7.org/fhir/us/core/StructureDefinition/us-core-birthsex">
				<valueCode value="M"/>
			</extension>
			<identifier>
				<use value="usual"/>
				<type>
					<coding>
						<system value="http://terminology.hl7.org/CodeSystem/v2-0203"/>
						<code value="MR"/>
						<display value="Medical Record Number"/>
					</coding>
					<text value="Medical Record Number"/>
				</type>
				<system value="http://clinic.goodhealth.org"/>
				<value value="5152020"/>
			</identifier>
			<active value="true"/>
			<name>
				<family value="A"/>
				<given value="Patient"/>
			</name>
			<telecom>
				<system value="phone"/>
				<value value="123-456-7890"/>
				<use value="home"/>
			</telecom>
			<telecom>
				<system value="email"/>
				<value value="testA@email.com"/>
			</telecom>
			<gender value="male"/>
			<birthDate value="1990-01-01"/>
			<address>
				<line value="123 Test Dr."/>
				<city value="Denver"/>
				<state value="CO"/>
				<postalCode value="80204"/>
				<country value="US"/>
			</address>
		</Patient>
	</entry>
	<entry>
		<Practitioner xmlns="http://hl7.org/fhir">
			<id value="practitioner-D"/>
			<meta>
				<profile value="http://hl7.org/fhir/us/core/StructureDefinition/us-core-practitioner"/>
			</meta>
			<identifier>
				<system value="http://hl7.org.fhir/sid/us-npi"/>
				<value value="1234560000"/>
			</identifier>
			<name>
				<family value="D"/>
				<given value="John"/>
				<prefix value="Dr"/>
			</name>
			<telecom>
				<system value="phone"/>
				<value value="720-555-6443"/>
				<use value="work"/>
			</telecom>
			<gender value="female"/>
			<birthDate value="1980-11-15"/>
			<qualification>
				<identifier>
					<use value="official"/>
					<type>
						<coding>
							<system value="http://terminology.hl7.org/CodeSystem/v2-0203"/>
							<code value="MD"/>
							<display value="Medical License number"/>
						</coding>
						<text value="Missouri Medical License"/>
					</type>
					<system value="http://missouri.gov/fhir/medical-license"/>
					<value value="MO-9000"/>
					<assigner>
						<display value="State of Missouri"/>
					</assigner>
				</identifier>
				<code>
					<coding>
						<system value="http://missouri.gov/license-type"/>
						<code value="8000"/>
						<display value="Medical Doctor"/>
					</coding>
				</code>
				<issuer>
					<display value="Missouri Department of Licensing and Regulatory Affairs"/>
				</issuer>
			</qualification>
		</Practitioner>
	</entry>
	<entry>
		<PractitionerRole>
			<id value="PractitionerRole-D"/>
			<meta>
				<profile value="http://hl7.org/fhir/us/core/StructureDefinition/us-core-practitionerrole"/>
			</meta>
			<practitioner>
				<reference value="Practitioner/practitioner-D"/>
				<display value="Dr. John D"/>
			</practitioner>
			<organization>
				<reference value="Organization/GOHC-organization"/>
				<display value="Good Oral Health Clinic"/>
			</organization>
			<code>
				<coding>
					<system value="http://nucc.org/provider-taxonomy"/>
					<code value="361QP2300X"/>
					<display value="General Dentist"/>
				</coding>
			</code>
			<specialty>
				<coding>
					<system value="http://nucc.org/provider-taxonomy"/>
					<code value="908D00000X"/>
					<display value="General Denist"/>
				</coding>
			</specialty>
			<endpoint>
				<reference value="http://52.90.126.238:8080/fhir/baseR4/Endpoint/Endpoint-2"/>
				<display value="Good Oral Health Clinic Physicians Organization"/>
			</endpoint>
			<endpoint>
				<reference value="http://52.90.126.238:8080/fhir/baseR4/Endpoint/Endpoint-2"/>
				<display value="John.Dentist.MD@direct.example.org"/>
			</endpoint>
		</PractitionerRole>
	</entry>
	<entry>
		<Organization xmlns="http://hl7.org/fhir">
			<id value="GOHC-organization"/>
			<meta>
				<profile value="http://hl7.org/fhir/us/core/StructureDefinition/us-core-organization"/>
			</meta>
			<identifier>
				<system value="http://hl7.org.fhir/sid/us-npi"/>
				<value value="2316452725"/>
			</identifier>
			<active value="true"/>
			<type>
				<coding>
					<system value="http://terminology.hl7.org/CodeSystem/organization-type"/>
					<code value="prov"/>
					<display value="General Dental Provider"/>
				</coding>
			</type>
			<name value="Good Oral Health Clinic"/>
			<telecom>
				<system value="phone"/>
				<value value="(+1) 720-677-7777"/>
			</telecom>
			<telecom>
				<system value="email"/>
				<value value="customer2-service@GHclinic.org"/>
			</telecom>
			<address>
				<line value="7552 W Alameda Ave"/>
				<city value="Lakewood"/>
				<state value="CO"/>
				<postalCode value="80226"/>
				<country value="USA"/>
			</address>
		</Organization>
	</entry>
	<entry>
		<AllergyIntolerance xmlns="http://hl7.org/fhir">
			<id value="Allergy-example-dental"/>
			<meta>
				<profile value="http://hl7.org/fhir/us/core/StructureDefinition/us-core-allergyintolerance"/>
			</meta>

			<clinicalStatus>
				<coding>
					<system value="http://terminology.hl7.org/CodeSystem/allergyintolerance-clinical"/>
					<code value="active"/>
				</coding>
			</clinicalStatus>
			<verificationStatus>
				<coding>
					<system value="http://terminology.hl7.org/CodeSystem/allergyintolerance-verification"/>
					<code value="confirmed"/>
				</coding>
			</verificationStatus>
			<category value="medication"/>
			<criticality value="high"/>
			<code>
				<coding>
					<system value="http://www.nlm.nih.gov/research/umls/rxnorm"/>
					<code value="7908"/>
					<display value="Penicillin G (Ingredient)"/>
				</coding>
				<text value="Penicillin G (Ingredient)"/>
			</code>
			<patient>
				<reference value="Patient/example-dental"/>
				<display value="Patient A"/>
			</patient>
			<reaction>
				<manifestation>
					<coding>
						<system value="http://snomed.info/sct"/>
						<code value="271807003"/>
						<display value="skin rash"/>
					</coding>
					<text value="skin rash"/>
				</manifestation>
				<severity value="mild"/>
			</reaction>
		</AllergyIntolerance>
	</entry>
	<entry>
		<Condition xmlns="http://hl7.org/fhir">
			<id value="example-2"/>
			<meta>
				<profile value="http://hl7.org/fhir/us/core/StructureDefinition/us-core-condition"/>
			</meta>
			<clinicalStatus>
				<coding>
					<system value="http://terminology.hl7.org/CodeSystem/condition-clinical"/>
					<code value="active"/>
					<display value="Active"/>
				</coding>
				<text value="Active"/>
			</clinicalStatus>
			<verificationStatus>
				<coding>
					<system value="http://terminology.hl7.org/CodeSystem/condition-ver-status"/>
					<code value="confirmed"/>
					<display value="Confirmed"/>
				</coding>
				<text value="Confirmed"/>
			</verificationStatus>
			<category>
				<coding>
					<system value="http://terminology.hl7.org/CodeSystem/condition-category"/>
					<code value="problem-list-item"/>
					<display value="Problem List Item"/>
				</coding>
				<text value="Problem"/>
			</category>
			<code>
				<coding>
					<system value="http://snomed.info/sct"/>
					<code value="245592005"/>
					<display value="Entire permanent mandibular right first molar tooth (body structure); tooth number 30"/>
				</coding>
				<text value="Entire permanent mandibular right first molar tooth (body structure); tooth number 30"/>
			</code>
			<subject>
				<reference value="Patient/example-dental"/>
				<display value="Patient A"/>
			</subject>
			<onsetDateTime value="2019-06-10"/>
		</Condition>
	</entry>
	<entry>
		<Condition xmlns="http://hl7.org/fhir">
			<id value="example-3"/>
			<meta>
				<profile value="http://hl7.org/fhir/us/core/StructureDefinition/us-core-condition"/>
			</meta>
			<clinicalStatus>
				<coding>
					<system value="http://terminology.hl7.org/CodeSystem/condition-clinical"/>
					<code value="active"/>
					<display value="Active"/>
				</coding>
				<text value="Active"/>
			</clinicalStatus>
			<verificationStatus>
				<coding>
					<system value="http://terminology.hl7.org/CodeSystem/condition-ver-status"/>
					<code value="confirmed"/>
					<display value="Confirmed"/>
				</coding>
				<text value="Confirmed"/>
			</verificationStatus>
			<category>
				<coding>
					<system value="http://terminology.hl7.org/CodeSystem/condition-category"/>
					<code value="problem-list-item"/>
					<display value="Problem List Item"/>
				</coding>
				<text value="Problem"/>
			</category>
			<code>
				<coding>
					<system value="http://snomed.info/sct"/>
					<code value="80967001"/>
					<display value="Dental caries"/>
				</coding>
				<text value="Dental caries"/>
			</code>
			<subject>
				<reference value="Patient/example-dental"/>
				<display value="Patient A"/>
			</subject>
			<onsetDateTime value="2019-12-10"/>
		</Condition>
	</entry>
	<entry>
		<DiagnosticReport xmlns="http://hl7.org/fhir">
			<id value="dental-report"/>
			<meta>
				<profile
          value="http://hl7.org/fhir/us/core/StructureDefinition/us-core-diagnosticreport-note"/>
			</meta>
			<status value="final"/>
			<category>
				<coding>
					<system value="http://loinc.org"/>
					<code value="LP29684-5"/>
					<display value="Radiology"/>
				</coding>
				<text value="Radiology"/>
			</category>
			<code>
				<coding>
					<system value="http://cdt.org"/>
					<code value="D0330"/>
					<display value="Panoramic Radiograph"/>
				</coding>
				<text value="Panoramic Radiograph"/>
			</code>
			<subject>
				<reference value="Patient/example-dental"/>
			</subject>
			<effectiveDateTime value="2020-03-30T21:39:30.000Z"/>
			<presentedForm>
				<contentType value="application/xhtml"/>
				<data
          value=""/>
			</presentedForm>
		</DiagnosticReport>
	</entry>
	<entry>
		<Encounter xmlns="http://hl7.org/fhir">
			<id value="example-genden"/>
			<meta>
				<lastUpdated value="2017-05-26T11:56:57.250-04:00"/>
				<profile value="http://hl7.org/fhir/us/core/StructureDefinition/us-core-encounter"/>
			</meta>

			<status value="planned"/>
			<class>
				<system value="http://terminology.hl7.org/CodeSystem/v3-ActCode"/>
				<code value="AMB"/>
				<display value="ambulatory"/>
			</class>
			<type>
				<coding>
					<system value="http://www.ama-assn.org/go/cpt"/>
					<code value="99201"/>
				</coding>
				<text value="Office Visit"/>
			</type>
			<priority>
				<coding>
					<system value="http://terminology.hl7.org/CodeSystem/v3-ActPriority"/>
					<code value="R"/>
					<display value="routine"/>
				</coding>
			</priority>
			<subject>
				<reference value="Patient/example-dental"/>
			</subject>
			<period>
				<start value="2020-03-14T15:00:14-05:00"/>
				<end value="2020-03-14T15:30:14-05:00"/>
			</period>
		</Encounter>
	</entry>
	<entry>
		<MedicationRequest xmlns="http://hl7.org/fhir">
			<!-- example using medication codes -->
			<id value="dental-medreq-2"/>
			<meta>
				<profile value="http://hl7.org/fhir/us/core/StructureDefinition/us-core-medicationrequest"/>
			</meta>

			<status value="active"/>
			<intent value="plan"/>
			<medicationCodeableConcept>
				<coding>
					<system value="http://www.nlm.nih.gov/research/umls/rxnorm"/>
					<code value="746763"/>
					<display value="Proventil HFA 90 MCG/ACTUAT Meter Dose Inhaler, 200 ACTUAT"/>
				</coding>
				<text value="Proventil HFA 90 MCG/ACTUAT Meter Dose Inhaler, 200 ACTUAT"/>
			</medicationCodeableConcept>
			<subject>
				<reference value="Patient/example-dental"/>
				<display value="Patient A"/>
			</subject>
			<authoredOn value="2010-12-06"/>
			<requester>
				<reference value="Practitioner/practitioner-D"/>
				<display value="Dr. John M, MD"/>
			</requester>
			<!--   either a code or a reference to the medication being prescribed. As described earlier, this could be contained, separately        within a bundle or simply a reference to a remote server.  -->
			<!-- 	The following elements are not mandatory for the uscorenaut Profile  -->
			<dosageInstruction>
				<text value="2 puffs every 2-4 hours as needed"/>
				<timing>
					<repeat>
						<boundsPeriod>
							<start value="2010-12-06"/>
						</boundsPeriod>
					</repeat>
				</timing>
			</dosageInstruction>
			<dispenseRequest>
				<numberOfRepeatsAllowed value="12"/>
				<quantity>
					<value value="480"/>
					<unit value="mL"/>
					<system value="http://unitsofmeasure.org"/>
					<code value="mL"/>
				</quantity>
				<expectedSupplyDuration>
					<value value="30"/>
					<unit value="days"/>
					<system value="http://unitsofmeasure.org"/>
					<code value="d"/>
				</expectedSupplyDuration>
			</dispenseRequest>
		</MedicationRequest>
	</entry>
	<entry>
		<Medication xmlns="http://hl7.org/fhir">
			<id value="uscore-med2"/>
			<meta>
				<profile value="http://hl7.org/fhir/us/core/StructureDefinition/us-core-medication"/>
			</meta>

			<code>
				<coding>
					<system value="http://www.nlm.nih.gov/research/umls/rxnorm"/>
					<code value="746763"/>
					<display value="Proventil HFA 90 MCG/ACTUAT Meter Dose Inhaler, 200 ACTUAT"/>
				</coding>
				<text value="Proventil HFA 90 MCG/ACTUAT Meter Dose Inhaler, 200 ACTUAT"/>
			</code>
		</Medication>
	</entry>
	<entry>
		<Observation xmlns="http://hl7.org/fhir">
			<id value="pulp-test-obs"/> 
			<identifier> 
				<system value="https://dental-test.org"/> 
				<value value="1304-03720-EPT"/> 
			</identifier> 
			<status value="final"/> 
			<category> 
				<coding> 
					<system value="http://terminology.hl7.org/CodeSystem/observation-category"/> 
					<code value="exam"/> 
					<display value="Exam"/> 
				</coding> 
				<text value="Exam"/> 
			</category> 
			<code> 
				<coding> 
					<system value="http://www.ama-assn.org/go/cdt"/> 
					<code value="D0460 "/> 
					<display value="Pulp Vitality Tests"/> 
				</coding> 
			</code> 
			<subject> 
				<reference value="Patient/example-dental"/> 
				<display value="Patient A"/> 
			</subject> 
			<issued value="2020-04-04T14:34:00+01:00"/> 
			<performer> 
				<reference value="Practitioner/practitioner-D"/> 
				<display value="Dr. John D"/> 
			</performer> 
			<valueBoolean>
				<value value="true"/> 
			</valueBoolean> 
		</Observation> 
	</entry>
	<entry>
		<Procedure xmlns="http://hl7.org/fhir">
			<id value="MOBD-amalgam-restoration"/>
			<meta>
				<profile
          value="http://hl7.org/fhir/us/core/StructureDefinition/us-core-procedure"/>
			</meta>
			<identifier>
				<system value="urn:ietf:rfc:3986"/>
				<value value="urn:uuid:b2a737f2-2fdb-49c1-b097-dac173d07aff"/>
			</identifier>
			<status value="completed"/>
			<code>
				<coding>
					<system value="http://www.ama-assn.org/go/cdt"/>
					<code value="D2161"/>
				</coding>
				<text
          value="four or more surfaces, primary or permanent"/>
			</code>
			<subject>
				<reference value="Patient/example-dental"/>
			</subject>
			<performedPeriod>
				<start value="2020-02-26T12:55:26-07:00"/>
				<end value="2020-02-26T13:25:26-07:00"/>
			</performedPeriod>
			<performer>
				<actor>
					<reference value="Practitioner/practitioner-D"/>
				</actor>
			</performer>
			<bodySite>
				<code>
					<coding>
						<system value="http://hl7.org/fhir/us/dentalreferral/ValueSet/FDI-teeth-codes"/>
						<code value="30"/>
					</coding>
				</code>
			</bodySite>
		</Procedure>
	</entry>
	<entry>
		<ServiceRequest xmlns="http://hl7.org/fhir">
			<id value="example-dental-referral"/> 
			<status value="active"/> 
			<intent value="plan"/> 
			<category> 
				<coding> 
					<system value="http://snomed.info/sct"/> 
					<code value="14736009 "/> 
					<display value="History and physical examination with evaluation and management of patient (procedure)"/> 
				</coding> 
				<text value="Evaluation and management of patient (procedure)"/> 
			</category> 
			<code> 
				<coding>
					<system value="http://snomed.info/sct"/>
					<code value="431183005 "/>
					<display value="Referral to endodontic service"/>
				</coding>
				<text value="Referral to endodontic service"/>
			</code> 
			<subject> 
				<reference value="Patient/example-dental"/> 
			</subject> 
			<requester>
				<reference value="Practitioner/practitioner-D"/>
			</requester>
			<reasonReference>
				<reference value="Condition/dental-example-2"/>
			</reasonReference>
		</ServiceRequest> 
	</entry>
	<entry>
		<RiskAssessment xmlns="http://hl7.org/fhir">
			<id value="dental-riskexample"/>
			<status value="final"/> 
			<code> 
				<coding> 
					<system value="http://browser.ihtsdotools.org/"/> 
					<code value="709510001"/> 
					<display value="Assessment of oral risk for disease (procedure)"/> 
				</coding> 
			</code> 
			<subject> 
				<reference value="Patient/example-dental"/> 
			</subject> 
			<encounter> 
				<reference value="Encounter/dental-example-1"/> 
				<display value="Encounter with patient A"/> 
			</encounter> 
			<occurrenceDateTime value="2020-02-14"/>  
			<performer> 
				<reference value="Practitioner/practitioner-D"/> 
			</performer>   
			<note> 
				<text value="This risk assessment pertains to routine oral health information formerly captured in the Oral Health Risk Assessment"/> 
			</note> 
		</RiskAssessment> 
	</entry>
	<entry>
		<Observation xmlns="http://hl7.org/fhir">
			<id value="blood-pressure-dental"/> 
			<meta> 
				<profile value="http://hl7.org/fhir/StructureDefinition/vitalsigns"/> 
			</meta> 
			<identifier> 
				<system value="urn:ietf:rfc:3986"/> 
				<value value="urn:uuid:187e0c12-8dd2-67e2-99b2-bf273c878281"/> 
			</identifier>
			<basedOn> 
				<identifier> 
					<system value="https://acme.org/identifiers"/> 
					<value value="1234"/> 
				</identifier> 
			</basedOn> 
			<status value="final"/> 
			<category> 
				<coding> 
					<system value="http://terminology.hl7.org/CodeSystem/observation-category"/> 
					<code value="vital-signs"/> 
					<display value="Vital Signs"/> 
				</coding> 
			</category> 
			<code>
				<!--    replaced by 85354-9
        <coding>
          <system value="http://loinc.org"/>
          <code value="85354-9"/>
          <display value="Blood pressure systolic &amp; diastolic"/>
        </coding>
       -->
				<coding> 
					<system value="http://loinc.org"/> 
					<code value="85354-9"/> 
					<display value="Blood pressure panel with all children optional"/> 
				</coding> 
				<text value="Blood pressure systolic &amp; diastolic"/> 
			</code> 
			<subject> 
				<reference value="Patient/example-dental"/> 
			</subject> 
			<effectiveDateTime value="2019-09-17"/> 
			<performer> 
				<reference value="Practitioner/practitioner-D"/> 
			</performer>
			<!--      an interpretation offered to the combination observation
        generally, it would only be appropriate to offer an interpretation
        of an observation that has no value if it has "COMP" (component)
        observations      -->
			<interpretation> 
				<coding> 
					<system value="http://terminology.hl7.org/CodeSystem/v3-ObservationInterpretation"/> 
					<code value="L"/> 
					<display value="low"/> 
				</coding> 
				<text value="Below low normal"/> 
			</interpretation>
			<!--   The BodySite can be captured in a LOINC code but am showing it here to demonstrate populating
   the element    -->
			<bodySite> 
				<coding> 
					<system value="http://snomed.info/sct"/> 
					<code value="368209003"/> 
					<display value="Right arm"/> 
				</coding> 
			</bodySite> 
			<component>
				<!--   
           Observations are often coded in multiple code systems.
           - LOINC provides a very specific code (though not more specific in this particular
     case)
           - snomed provides a clinically relevant code that is usually less granular
     than LOINC
           - the source system provides its own code, which may be less or more granular
     than LOINC

this is shown here to demonstrate  the concept of translations within the codeableConcept
     datatype. The diastolic code below only has a LOINC code
              -->
				<code>
					<!--      LOINC -code      -->
					<coding> 
						<system value="http://loinc.org"/> 
						<code value="8480-6"/> 
						<display value="Systolic blood pressure"/> 
					</coding>
					<!--      SNOMED CT Codes      -->
					<coding> 
						<system value="http://snomed.info/sct"/> 
						<code value="271649006"/> 
						<display value="Systolic blood pressure"/> 
					</coding>
					<!--      Also, a local code specific to the source system      -->
					<coding> 
						<system value="http://acme.org/devices/clinical-codes"/> 
						<code value="bp-s"/> 
						<display value="Systolic Blood pressure"/> 
					</coding> 
				</code> 
				<valueQuantity> 
					<value value="130"/> 
					<unit value="mmHg"/> 
					<system value="http://unitsofmeasure.org"/> 
					<code value="mm[Hg]"/> 
				</valueQuantity>
				<!--      an interpretation for the individual composite observation    -->
				<interpretation> 
					<coding> 
						<system value="http://terminology.hl7.org/CodeSystem/v3-ObservationInterpretation"/> 
						<code value="N"/> 
						<display value="normal"/> 
					</coding> 
					<text value="Normal"/> 
				</interpretation>
				<!--       Should have a refrange as well     -->
			</component>
			<component>
				<!--      this codes only has a LOINC code      -->
				<code> 
					<coding> 
						<system value="http://loinc.org"/> 
						<code value="8462-4"/> 
						<display value="Diastolic blood pressure"/> 
					</coding> 
				</code> 
				<valueQuantity> 
					<value value="86"/> 
					<unit value="mmHg"/> 
					<system value="http://unitsofmeasure.org"/> 
					<code value="mm[Hg]"/> 
				</valueQuantity>
				<!--      an interpretation for the individual composite observation    -->
				<interpretation> 
					<coding> 
						<system value="http://terminology.hl7.org/CodeSystem/v3-ObservationInterpretation"/> 
						<code value="L"/> 
						<display value="low"/> 
					</coding> 
					<text value="Below low normal"/> 
				</interpretation>
				<!--       Should have a refrange as well     -->
			</component>
		</Observation> 
	</entry>
	<entry>
		<Observation xmlns="http://hl7.org/fhir">
			<id value="heart-rate-dental"/> 
			<meta> 
				<profile value="http://hl7.org/fhir/StructureDefinition/vitalsigns"/> 
			</meta> 

			<status value="final"/> 
			<category> 
				<coding> 
					<system value="http://terminology.hl7.org/CodeSystem/observation-category"/> 
					<code value="vital-signs"/> 
					<display value="Vital Signs"/> 
				</coding> 
				<text value="Vital Signs"/> 
			</category> 
			<code> 
				<coding> 
					<system value="http://loinc.org"/> 
					<code value="8867-4"/> 
					<display value="Heart rate"/> 
				</coding> 
				<text value="Heart rate"/> 
			</code> 
			<subject> 
				<reference value="Patient/example-dental"/> 
			</subject> 
			<effectiveDateTime value="2020-03-02"/> 
			<valueQuantity> 
				<value value="92"/> 
				<unit value="beats/minute"/> 
				<system value="http://unitsofmeasure.org"/> 
				<code value="/min"/> 
			</valueQuantity> 
		</Observation> 
	</entry>
	<entry>
		<ImagingStudy xmlns="http://hl7.org/fhir">
			<id value="dental-radiograph-example"/> 

			<identifier> 
				<use value="official"/> 
				<system value="urn:dicom:uid"/> 
				<value value="urn:oid:2.16.124.113543.6003.1154777499.30246.19789.3503430046"/> 
			</identifier> 
			<identifier> 
				<use value="usual"/> 
				<type> 
					<coding> 
						<system value="http://terminology.hl7.org/CodeSystem/v2-0203"/> 
						<code value="ACSN"/> 
					</coding> 
				</type> 
				<value value="Z12342398"/> 
				<assigner> 
					<reference value="Organization/dicom-organization"/> 
				</assigner> 
			</identifier> 
			<identifier> 
				<use value="secondary"/> 
				<value value="55551234"/> 
				<assigner> 
					<reference value="Organization/dicom-organization"/> 
				</assigner> 
			</identifier> 
			<status value="available"/> 
			<modality> 
				<system value="http://dicom.nema.org/resources/ontology/DCM"/> 
				<code value="DX"/> 
			</modality> 
			<subject> 
				<reference value="Patient/example-dental"/> 
			</subject> 
			<encounter> 
				<reference value="Encounter/genden"/> 
			</encounter> 
			<started value="2017-01-01T11:01:20+03:00"/> 
			<referrer> 
				<reference value="Practitioner/practitioner-D"/> 
			</referrer> 
			<endpoint> 
				<reference value="Endpoint/example-dental"/> 
			</endpoint> 
			<numberOfSeries value="1"/> 
			<numberOfInstances value="2"/> 
			<procedureCode> 
				<coding> 
					<system value="	http://www.ada.org/snodent"/> 
					<code value="D0330"/> 
					<display value="Panoramic Radiograph"/> 
				</coding> 
				<text value="Panoramic Radiograph"/> 
			</procedureCode> 
			<note> 
				<text value="PA X-rays (x2) also performed"/> 
			</note> 
			<series> 
				<uid value="2.16.124.113543.6003.1154777499.30246.19789.3503430045.1"/> 
				<number value="3"/> 
				<modality> 
					<system value="http://dicom.nema.org/resources/ontology/DCM"/> 
					<code value="DX"/> 
				</modality> 
				<description value="Panoramic Radiograph"/> 
				<numberOfInstances value="2"/> 
				<endpoint> 
					<reference value="Endpoint/example-dental"/> 
				</endpoint> 
				<bodySite> 
					<!--     Added body site to support duplicate checking example     -->
					<system value="http://snomed.info/sct"/> 
					<code value="245592005 "/> 
					<display value="Entire permanent mandibular right first molar tooth (body structure); tooth number 30"/> 
				</bodySite> 
				<started value="2020-03-15T11:01:20+03:00"/> 
				<performer> 
					<function> 
						<coding> 
							<system value="http://terminology.hl7.org/CodeSystem/v3-ParticipationType"/> 
							<code value="PRF"/> 
						</coding> 
					</function> 
					<actor> 
						<reference value="Practitioner/practitioner-D"/> 
					</actor> 
				</performer> 
				<instance> 
					<uid value="2.16.124.113543.6003.1154777499.30246.19789.3503430045.1.1"/> 
					<sopClass> 
						<system value="urn:ietf:rfc:3986"/> 
						<code value="urn:oid:1.2.840.10008.5.1.4.1.1.2"/> 
					</sopClass>  
					<number value="1"/> 
					<title value="PA VIEW"/> 
				</instance> 
				<instance> 
					<uid value="2.16.124.113543.6003.1154777499.30246.19789.3503430045.1.2"/> 
					<sopClass> 
						<system value="urn:ietf:rfc:3986"/> 
						<code value="urn:oid:1.2.840.10008.5.1.4.1.1.2"/> 
					</sopClass>  
					<number value="2"/> 
					<title value="LL VIEW"/> 
				</instance> 
			</series> 
		</ImagingStudy> 
	</entry>
</Bundle>