<?xml version="1.0" encoding="UTF-8"?>
<Bundle
    xmlns="http://hl7.org/fhir">
    <id value="Den-2-Endo-referral-bundle"/>
    <meta>
        <versionId value="3"/>
        <lastUpdated value="2020-05-13T17:08:20.500+00:00"/>
        <source value="#b1HI8sMek3KuNwMq"/>
    </meta>
    <identifier>
        <system value="urn:ietf:rfc:3986"/>
        <value value="urn:uuid:0c3151bd-1cbf-4d64-b04d-cd9187a4c6e0"/>
    </identifier>
    <type value="document"/>
    <timestamp value="2020-05-08T22:12:21Z"/>
    <entry>
        <fullUrl value="Composition/Dental-2-Endo-referral"/>
        <resource>
            <Composition>
                <id value="Dental-2-Endo-referral"/>
                <language value="en-US"/>
                <identifier>
                    <system value="urn:ietf:rfc:3986"/>
                    <value value="http://any.org/1"/>
                </identifier>
                <status value="preliminary"/>
                <type>
                    <coding>
                        <system value="http://loinc.org"/>
                        <code value="57133-1"/>
                        <display value="Referral Note"/>
                    </coding>
                </type>
                <subject>
                    <reference value="Patient/example-dental"/>
                    <display value="Patient A"/>
                </subject>
                <encounter>
                    <reference value="Encounter/Dental-encounter"/>
                </encounter>
                <date value="2020-03-15T09:10:14Z"/>
                <author>
                    <reference value="PractitionerRole/PractitionerRole-D"/>
                    <display value="Dr. John D, MD"/>
                </author>
                <title value="Referral Note"/>
                <confidentiality value="U"/>
                <attester>
                    <mode value="legal"/>
                    <time value="2020-03-15T09:10:14Z"/>
                    <party>
                        <reference value="PractitionerRole/PractitionerRole-D"/>
                        <display value="Dr. John D, MD"/>
                    </party>
                </attester>
                <custodian>
                    <reference value="Organization/GOHC-organization"/>
                    <display value="Good Oral Health Clinic"/>
                </custodian>
                <section>
                    <title value="Allergies and Intolerances Section"/>
                    <code>
                        <coding>
                            <system value="http://loinc.org"/>
                            <code value="48765-2"/>
                            <display value="Allergies and adverse reactions Document"/>
                        </coding>
                    </code>
                    <text>
                        <status value="generated"/>
                        <div
                            xmlns="http://www.w3.org/1999/xhtml">
                            <table>
                                <tr>
                                    <td>
                                        <b>Allergen</b>
                                    </td>
                                    <td>
                                        <b>Code</b>
                                    </td>
                                    <td>
                                        <b>Manifestation</b>
                                    </td>
                                    <td>
                                        <b>Severity</b>
                                    </td>
                                </tr>
                                <tr>
                                    <td>Penicillin G</td>
                                    <td>7908</td>
                                    <td>Skin rash</td>
                                    <td>mild</td>
                                </tr>
                            </table>
                        </div>
                    </text>
                </section>
                <section>
                    <title value="Advance Directives Section"/>
                    <code>
                        <coding>
                            <system value="http://loinc.org"/>
                            <code value="42348-3"/>
                            <display value="Advance directives"/>
                        </coding>
                    </code>
                    <text>
                        <status value="generated"/>
                        <div
                            xmlns="http://www.w3.org/1999/xhtml">
                            <p>Advanced Directives text</p>
                        </div>
                    </text>
                </section>
                <section>
                    <title value="Assessment Section"/>
                    <code>
                        <coding>
                            <system value="http://loinc.org"/>
                            <code value="51848-0"/>
                            <display value="Evaluation note"/>
                        </coding>
                    </code>
                    <text>
                        <status value="generated"/>
                        <div
                            xmlns="http://www.w3.org/1999/xhtml">
                            <p>Intraoral findings:  On exam of the right lower quadrant, tooth #30 was sensitive to percussion (lingering for 45 seconds) and to cold (sharp, stops when cold removed). No sensitivity to palpation, Radiographic pain upon biting; with relief upon opening. No evidence of new caries on distal; missing #28, replaced with endo implant; #32 impacted with apparent full boney. One cm swelling present on buccal gingivae around #29 and #30 with sinus tract present #30B. </p>
                            <p>Paraoral findings: 2 small, mobile lymph nodes found in right submandibular area.</p>
                            <p>Oral Test performed: Electric pulp test was positive for vitality #29 and 31 with #30 non-responsive.  Cold test responsive #30, lingering 15 sec.</p>
                            <p>Radiographic results showed #32 full bony impaction, #28 endosteal (root form) implant with full crown restoration, and tooth #30 with small PA lesion mesial root. Radiographic caries lesion #29 distal caries lesion (ADA Caries Classification System moderate caries lesion). Other WNL </p>
                        </div>
                    </text>
                </section>
                <section>
                    <title value="Family History Section"/>
                    <code>
                        <coding>
                            <system value="http://loinc.org"/>
                            <code value="10157-6"/>
                            <display value="History of family member diseases Narrative"/>
                        </coding>
                    </code>
                    <text>
                        <status value="generated"/>
                        <div
                            xmlns="http://www.w3.org/1999/xhtml">
                            <p>Family History text</p>
                        </div>
                    </text>
                </section>
                <section>
                    <title value="Past Medical History Section"/>
                    <code>
                        <coding>
                            <system value="http://loinc.org"/>
                            <code value="11348-0"/>
                            <display value="History of Past illness Narrative"/>
                        </coding>
                    </code>
                    <text>
                        <status value="generated"/>
                        <div
                            xmlns="http://www.w3.org/1999/xhtml">
                            <p>One month ago, pt. reports he had a MOBD amalgam restoration (D2161 #30 MOBD) placed in his right lower first molar (tooth #30) for a fractured tooth - MB cusp lost due to undermining by caries lesion (ADA Caries Classification System advanced caries lesion).</p>
                        </div>
                    </text>
                </section>
                <section>
                    <title value="History of Present Illness Section"/>
                    <code>
                        <coding>
                            <system value="http://loinc.org"/>
                            <code value="10164-2"/>
                            <display value="History of Present illness Narrative"/>
                        </coding>
                    </code>
                    <text>
                        <status value="generated"/>
                        <div
                            xmlns="http://www.w3.org/1999/xhtml">
                            <p>Patient A said the pain started 2 weeks ago and has progressively worsened. </p>
                            <p>He noticed sharp, stabbing pain provoked by drinking cold beverages in the past week and lingering pain with biting in the last 2 days. </p>
                            <p>He is able to eat regular food but only chews on the left side. </p>
                            <p>He takes 400 mg ibuprofen every 8 hours for pain. </p>
                            <p>His last doses was 2 hours prior to this visit. </p>
                        </div>
                    </text>
                </section>
                <section>
                    <title value="Social History Section"/>
                    <code>
                        <coding>
                            <system value="http://loinc.org"/>
                            <code value="29762-2"/>
                            <display value="Social history Narrative"/>
                        </coding>
                    </code>
                    <text>
                        <status value="generated"/>
                        <div
                            xmlns="http://www.w3.org/1999/xhtml">
                            <p>Smoking Hx text</p>
                        </div>
                    </text>
                </section>
                <section>
                    <title value="Chief Complaint and Reason for Visit Section"/>
                    <code>
                        <coding>
                            <system value="http://loinc.org"/>
                            <code value="46239-0"/>
                            <display value="Chief complaint+Reason for visit Narrative"/>
                        </coding>
                    </code>
                    <text>
                        <status value="generated"/>
                        <div
                            xmlns="http://www.w3.org/1999/xhtml">
                            <p>Pain in lower RQ</p>
                        </div>
                    </text>
                </section>
                <section>
                    <title value="General Status Section"/>
                    <code>
                        <coding>
                            <system value="http://loinc.org"/>
                            <code value="10210-3"/>
                            <display value="Physical findings of General status Narrative"/>
                        </coding>
                    </code>
                    <text>
                        <status value="generated"/>
                        <div
                            xmlns="http://www.w3.org/1999/xhtml">
                            <p>General Status text</p>
                        </div>
                    </text>
                </section>
                <section>
                    <title value="Functional Status Section"/>
                    <code>
                        <coding>
                            <system value="http://loinc.org"/>
                            <code value="47420-5"/>
                            <display value="Functional status assessment note"/>
                        </coding>
                    </code>
                    <text>
                        <status value="generated"/>
                        <div
                            xmlns="http://www.w3.org/1999/xhtml">
                            <p>Functional status text</p>
                        </div>
                    </text>
                </section>
                <section>
                    <title value="Mental Status Section"/>
                    <code>
                        <coding>
                            <system value="http://loinc.org"/>
                            <code value="10190-7"/>
                            <display value="Mental status"/>
                        </coding>
                    </code>
                    <text>
                        <status value="generated"/>
                        <div
                            xmlns="http://www.w3.org/1999/xhtml">
                            <p>Mental Status text</p>
                        </div>
                    </text>
                </section>
                <section>
                    <title value="Immunizations Section"/>
                    <code>
                        <coding>
                            <system value="http://loinc.org"/>
                            <code value="11369-6"/>
                            <display value="History of Immunization Narrative"/>
                        </coding>
                    </code>
                    <text>
                        <status value="generated"/>
                        <div
                            xmlns="http://www.w3.org/1999/xhtml">
                            <p>Immunizations text</p>
                        </div>
                    </text>
                </section>
                <section>
                    <title value="Nutrition Section"/>
                    <code>
                        <coding>
                            <system value="http://loinc.org"/>
                            <code value="61144-2"/>
                            <display value="Diet and nutrition Narrative"/>
                        </coding>
                    </code>
                    <text>
                        <status value="generated"/>
                        <div
                            xmlns="http://www.w3.org/1999/xhtml">
                            <p>Nutrition Status text</p>
                        </div>
                    </text>
                </section>
                <section>
                    <title value="Reason for Referral Section"/>
                    <code>
                        <coding>
                            <system value="http://loinc.org"/>
                            <code value="42349-1"/>
                            <display value="Reason for referral (narrative)"/>
                        </coding>
                    </code>
                    <text>
                        <status value="generated"/>
                        <div
                            xmlns="http://www.w3.org/1999/xhtml">
                            <p>Referral to endodontist for evaluation of #30 and endodontic therapy #30.  Referral includes medications prescribed, diagnosis, prognosis, treatment notes, images, and follow up recommendations to be sent from Dentist to Endodontist</p>
                            <p>Suspect irreversible pulpitis with necrotic pulp and periapical pathosis. Tooth is restorable despite possible incomplete fracture DB cusp #30.</p>
                        </div>
                    </text>
                </section>
                <section>
                    <title value="Medication Section"/>
                    <code>
                        <coding>
                            <system value="http://loinc.org"/>
                            <code value="10160-0"/>
                            <display value="History of Medication use Narrative"/>
                        </coding>
                    </code>
                    <text>
                        <status value="generated"/>
                        <div
                            xmlns="http://www.w3.org/1999/xhtml">
                            <table>
                                <tr>
                                    <td>
                                        <b>Medication</b>
                                    </td>
                                    <td>
                                        <b>Directions</b>
                                    </td>
                                    <td>
                                        <b>Start Date</b>
                                    </td>
                                    <td>
                                        <b>Status</b>
                                    </td>
                                    <td>
                                        <b>Indications</b>
                                    </td>
                                    <td>
                                        <b>Fill Instructions</b>
                                    </td>
                                </tr>
                                <tr>
                                    <td>Proventil HFA 90 mcg/actuat MDI Inhaler</td>
                                    <td>2 puffs  every two to four hours as needed for wheezing</td>
                                    <td>20160401</td>
                                    <td>Active</td>
                                    <td>asthma</td>
                                    <td>Generic substitution allowed</td>
                                </tr>
                            </table>
                        </div>
                    </text>
                </section>
                <section>
                    <title value="Medical Equipment Section"/>
                    <code>
                        <coding>
                            <system value="http://loinc.org"/>
                            <code value="46264-8"/>
                            <display value="History of medical device use"/>
                        </coding>
                    </code>
                    <text>
                        <status value="generated"/>
                        <div
                            xmlns="http://www.w3.org/1999/xhtml">
                            <p>Medical Equipment text</p>
                        </div>
                    </text>
                </section>
                <section>
                    <title value="Plan of Treatment Section"/>
                    <code>
                        <coding>
                            <system value="http://loinc.org"/>
                            <code value="18776-5"/>
                            <display value="Plan of care note"/>
                        </coding>
                    </code>
                    <text>
                        <status value="generated"/>
                        <div
                            xmlns="http://www.w3.org/1999/xhtml">
                            <table>
                                <tr>
                                    <td>
                                        <b>Planned Activity</b>
                                    </td>
                                    <td>
                                        <b>Period</b>
                                    </td>
                                    <td>
                                        <b>Status</b>
                                    </td>
                                </tr>
                                <tr>
                                    <td>Referral to Endodontist</td>
                                    <td>2020/04/16</td>
                                    <td>Completed</td>
                                </tr>
                            </table>
                        </div>
                    </text>
                </section>
                <section>
                    <title value="Problem Section"/>
                    <code>
                        <coding>
                            <system value="http://loinc.org"/>
                            <code value="11450-4"/>
                            <display value="Problem list - Reported"/>
                        </coding>
                    </code>
                    <text>
                        <status value="generated"/>
                        <div
                            xmlns="http://www.w3.org/1999/xhtml">
                            <table>
                                <tr>
                                    <td>
                                        <b>Problem Name</b>
                                    </td>
                                    <td>
                                        <b>Type</b>
                                    </td>
                                    <td>
                                        <b>Onset Date</b>
                                    </td>
                                    <td>
                                        <b>Abatement Date</b>
                                    </td>
                                    <td>
                                        <b>Status</b>
                                    </td>
                                </tr>
                                <tr>
                                    <td>#30 pulpal necrosis and periapical pathosis with draining fistula</td>
                                    <td>Condition</td>
                                    <td>2019-04-01</td>
                                    <td>2016-04-14</td>
                                    <td>Active</td>
                                </tr>
                                <tr>
                                    <td>Possible vital pulp remnants remain</td>
                                    <td>Condition</td>
                                    <td>2019-04-01</td>
                                    <td>2016-04-14</td>
                                    <td>Active</td>
                                </tr>
                                <tr>
                                    <td>Dental caries lesion, #29</td>
                                    <td>Condition</td>
                                    <td>2019-04-01</td>
                                    <td>2016-04-14</td>
                                    <td>Active</td>
                                </tr>
                                <tr>
                                    <td>Restored caries lesion</td>
                                    <td>Condition</td>
                                    <td>2019-04-01</td>
                                    <td>2016-04-14</td>
                                    <td>Active</td>
                                </tr>
                                <tr>
                                    <td>Possible DB Cusp Fracture</td>
                                    <td>Condition</td>
                                    <td>2019-04-01</td>
                                    <td>2016-04-14</td>
                                    <td>Active</td>
                                </tr>
                            </table>
                        </div>
                    </text>
                </section>
                <section>
                    <title value="Procedures Section"/>
                    <code>
                        <coding>
                            <system value="http://loinc.org"/>
                            <code value="47519-4"/>
                            <display value="History of Procedures Document"/>
                        </coding>
                    </code>
                    <text>
                        <status value="generated"/>
                        <div
                            xmlns="http://www.w3.org/1999/xhtml">
                            <table>
                                <tr>
                                    <td>
                                        <b>Procedure Name</b>
                                    </td>
                                    <td>
                                        <b>Body Site</b>
                                    </td>
                                    <td>
                                        <b>Performer</b>
                                    </td>
                                    <td>
                                        <b>Date Performed</b>
                                    </td>
                                </tr>
                                <tr>
                                    <td>MOBD amalgam restoration noted (in odontogram)</td>
                                    <td>mouth</td>
                                    <td>Dr. John Dentist</td>
                                    <td>20190405</td>
                                </tr>
                            </table>
                        </div>
                    </text>
                </section>
                <section>
                    <title value="Results Section"/>
                    <code>
                        <coding>
                            <system value="http://loinc.org"/>
                            <code value="30954-2"/>
                            <display value="Relevant diagnostic tests/laboratory data Narrative"/>
                        </coding>
                    </code>
                    <text>
                        <status value="generated"/>
                        <div
                            xmlns="http://www.w3.org/1999/xhtml">
                            <table>
                                <tr>
                                    <td>
                                        <b>Test</b>
                                    </td>
                                    <td>
                                        <b>Result Observation Value</b>
                                    </td>
                                    <td>
                                        <b>Date</b>
                                    </td>
                                </tr>
                                <tr>
                                    <td>PA x-rays; Radiographic imaging</td>
                                    <td>Radiographic results showed #32 full bony impaction, #28 endosteal (root form) implant with full crown restoration, and tooth #30 with small PA lesion mesial root. Radiographic caries lesion #29 distal caries lesion (ADA Caries Classification System moderate caries lesion). Other WNL</td>
                                    <td>2020/03/15</td>
                                </tr>
                            </table>
                        </div>
                    </text>
                </section>
                <section>
                    <title value="Vital Signs Section"/>
                    <code>
                        <coding>
                            <system value="http://loinc.org"/>
                            <code value="8716-3"/>
                            <display value="Vital signs"/>
                        </coding>
                    </code>
                    <text>
                        <status value="generated"/>
                        <div
                            xmlns="http://www.w3.org/1999/xhtml">
                            <table>
                                <tr>
                                    <td>
                                        <b>Vital Sign</b>
                                    </td>
                                    <td>
                                        <b>Date</b>
                                    </td>
                                    <td>
                                        <b>Value</b>
                                    </td>
                                </tr>
                                <tr>
                                    <td>Blood Pressure</td>
                                    <td>2020/04/15</td>
                                    <td>130/86</td>
                                </tr>
                                <tr>
                                    <td>Pulse</td>
                                    <td>2020/04/15</td>
                                    <td>92</td>
                                </tr>
                            </table>
                        </div>
                    </text>
                </section>
            </Composition>
        </resource>
    </entry>
    <entry>
        <fullUrl value="Patient/example-dental"/>
        <resource>
            <Patient>
                <id value="example-dental"/>
                <text>
                    <status value="generated"/>
                    <div
                        xmlns="http://www.w3.org/1999/xhtml">
                        <div class="hapiHeaderText">Patient 
	            
                            
                            
                            <b>A </b>
                        </div>
                        <table class="hapiPropertyTable">
                            <tbody>
                                <tr>
                                    <td>Identifier</td>
                                    <td>5152020</td>
                                </tr>
                                <tr>
                                    <td>Address</td>
                                    <td>
                                        <span>123 Test Dr. </span>
                                        <br/>
                                        <span>Denver </span>
                                        <span>CO </span>
                                        <span>US </span>
                                    </td>
                                </tr>
                                <tr>
                                    <td>Date of birth</td>
                                    <td>
                                        <span>01 January 1990</span>
                                    </td>
                                </tr>
                            </tbody>
                        </table>
                    </div>
                </text>
                <extension url="http://hl7.org/fhir/us/core/StructureDefinition/us-core-race">
                    <extension url="ombCategory">
                        <valueCoding>
                            <system value="urn:oid:2.16.840.1.113883.6.238"/>
                            <code value="2106-3"/>
                            <display value="White"/>
                        </valueCoding>
                    </extension>
                    <extension url="detailed">
                        <valueCoding>
                            <system value="urn:oid:2.16.840.1.113883.6.238"/>
                            <code value="1516-4"/>
                            <display value="Zuni"/>
                        </valueCoding>
                    </extension>
                    <extension url="text">
                        <valueString value="Mixed"/>
                    </extension>
                </extension>
                <extension url="http://hl7.org/fhir/us/core/StructureDefinition/us-core-ethnicity">
                    <extension url="ombCategory">
                        <valueCoding>
                            <system value="urn:oid:2.16.840.1.113883.6.238"/>
                            <code value="2135-2"/>
                            <display value="Hispanic or Latino"/>
                        </valueCoding>
                    </extension>
                    <extension url="text">
                        <valueString value="Hispanic or Latino"/>
                    </extension>
                </extension>
                <extension url="http://hl7.org/fhir/us/core/StructureDefinition/us-core-birthsex">
                    <valueCode value="M"/>
                </extension>
                <identifier>
                    <use value="usual"/>
                    <type>
                        <coding>
                            <system value="http://terminology.hl7.org/CodeSystem/v2-0203"/>
                            <code value="MR"/>
                            <display value="Medical Record Number"/>
                        </coding>
                        <text value="Medical Record Number"/>
                    </type>
                    <system value="http://clinic.goodhealth.org"/>
                    <value value="5152020"/>
                </identifier>
                <active value="true"/>
                <name>
                    <family value="A"/>
                    <given value="Patient"/>
                </name>
                <telecom>
                    <system value="phone"/>
                    <value value="123-456-7890"/>
                    <use value="home"/>
                </telecom>
                <telecom>
                    <system value="email"/>
                    <value value="testA@email.com"/>
                </telecom>
                <gender value="male"/>
                <birthDate value="1990-01-01"/>
                <address>
                    <line value="123 Test Dr."/>
                    <city value="Denver"/>
                    <state value="CO"/>
                    <postalCode value="80204"/>
                    <country value="US"/>
                </address>
            </Patient>
        </resource>
    </entry>
    <entry>
        <fullUrl value="Practitioner/practitioner-D"/>
        <resource>
            <Practitioner>
                <id value="practitioner-D"/>
                <identifier>
                    <system value="http://hl7.org.fhir/sid/us-npi"/>
                    <value value="1234560000"/>
                </identifier>
                <name>
                    <family value="D"/>
                    <given value="John"/>
                    <prefix value="Dr"/>
                </name>
                <telecom>
                    <system value="phone"/>
                    <value value="720-555-6443"/>
                    <use value="work"/>
                </telecom>
                <gender value="male"/>
                <birthDate value="1990-06-09"/>
                <qualification>
                    <identifier>
                        <use value="official"/>
                        <type>
                            <coding>
                                <system value="http://terminology.hl7.org/CodeSystem/v2-0203"/>
                                <code value="MD"/>
                                <display value="Medical License number"/>
                            </coding>
                            <text value="Missouri Medical License"/>
                        </type>
                        <system value="http://missouri.gov/fhir/medical-license"/>
                        <value value="MO-9000"/>
                        <assigner>
                            <display value="State of Missouri"/>
                        </assigner>
                    </identifier>
                    <code>
                        <coding>
                            <system value="http://missouri.gov/license-type"/>
                            <code value="8000"/>
                            <display value="Medical Doctor"/>
                        </coding>
                    </code>
                    <issuer>
                        <display value="Missouri Department of Licensing and Regulatory Affairs"/>
                    </issuer>
                </qualification>
            </Practitioner>
        </resource>
    </entry>
    <entry>
        <fullUrl value="PractitionerRole/PractitionerRole-D"/>
        <resource>
            <PractitionerRole>
                <id value="PractitionerRole-D"/>
                <practitioner>
                    <reference value="Practitioner/practitioner-D"/>
                    <display value="Dr. John D"/>
                </practitioner>
                <organization>
                    <reference value="Organization/GOHC-organization"/>
                    <display value="Good Oral Health Clinic"/>
                </organization>
                <code>
                    <coding>
                        <system value="http://nucc.org/provider-taxonomy"/>
                        <code value="122300000X"/>
                        <display value="General Dentist"/>
                    </coding>
                </code>
                <specialty>
                    <coding>
                        <system value="http://nucc.org/provider-taxonomy"/>
                        <code value="122300000X"/>
                        <display value="General Denist"/>
                    </coding>
                </specialty>
                <endpoint>
                    <reference value="http://52.90.126.238:8080/fhir/baseR4/Endpoint/Endpoint-2"/>
                    <display value="Good Oral Health Clinic Physicians Organization"/>
                </endpoint>
                <endpoint>
                    <reference value="http://52.90.126.238:8080/fhir/baseR4/Endpoint/Endpoint-2"/>
                    <display value="John.Dentist.MD@direct.example.org"/>
                </endpoint>
            </PractitionerRole>
        </resource>
    </entry>
    <entry>
        <fullUrl value="Encounter/Dental-encounter"/>
        <resource>
            <Encounter>
                <id value="Dental-2-Med-Consult"/>
                <status value="finished"/>
                <class>
                    <system value="http://terminology.hl7.org/CodeSystem/v3-ActCode"/>
                    <code value="AMB"/>
                    <display value="ambulatory"/>
                </class>
                <type>
                    <coding>
                        <system value="http://snomed.info/sct"/>
                        <code value="185347001"/>
                    </coding>
                    <text value="Encounter for problem (procedure)"/>
                </type>
                <priority>
                    <coding>
                        <system value="http://terminology.hl7.org/CodeSystem/v3-ActPriority"/>
                        <code value="R"/>
                        <display value="routine"/>
                    </coding>
                </priority>
                <subject>
                    <reference value="Patient/example-dental"/>
                </subject>
                <period>
                    <start value="2020-02-15T15:00:14-05:00"/>
                    <end value="2020-02-15T15:30:14-05:00"/>
                </period>
            </Encounter>
        </resource>
    </entry>
    <entry>
        <fullUrl value="Organization/GOHC-organization"/>
        <resource>
            <Organization>
                <id value="GOHC-organization"/>
                <identifier>
                    <system value="http://hl7.org.fhir/sid/us-npi"/>
                    <value value="2316452725"/>
                </identifier>
                <active value="true"/>
                <type>
                    <coding>
                        <system value="http://terminology.hl7.org/CodeSystem/organization-type"/>
                        <code value="prov"/>
                        <display value="General Dental Provider"/>
                    </coding>
                </type>
                <name value="Good Oral Health Clinic"/>
                <telecom>
                    <system value="phone"/>
                    <value value="(+1) 720-677-7777"/>
                </telecom>
                <telecom>
                    <system value="email"/>
                    <value value="customer2-service@GHclinic.org"/>
                </telecom>
                <address>
                    <line value="7552 W Alameda Ave"/>
                    <city value="Lakewood"/>
                    <state value="CO"/>
                    <postalCode value="80226"/>
                    <country value="USA"/>
                </address>
            </Organization>
        </resource>
    </entry>
</Bundle>