<?xml version="1.0" encoding="UTF-8"?>
<Bundle
    xmlns="http://hl7.org/fhir">
    <id value="Med-2-Dental-referral-bundle"/>
    <meta>
        <versionId value="9"/>
        <lastUpdated value="2020-05-13T17:08:20.426+00:00"/>
        <source value="#dwSJf4sHL6GxQnDo"/>
    </meta>
    <identifier>
        <system value="urn:ietf:rfc:3986"/>
        <value value="urn:uuid:3c3151bd-1cbf-4d64-b04d-cd9187a4c6e3"/>
    </identifier>
    <type value="document"/>
    <timestamp value="2020-05-11T01:43:30Z"/>
    <entry>
        <fullUrl value="Composition/Med-2-Dental-Referral"/>
        <resource>
            <Composition>
                <id value="Med-2-Dental-Referral"/>
                <language value="en-US"/>
                <identifier>
                    <system value="urn:ietf:rfc:3986"/>
                    <value value="http://any.org/1"/>
                </identifier>
                <status value="final"/>
                <type>
                    <coding>
                        <system value="http://loinc.org"/>
                        <code value="57133-1"/>
                        <display value="Referral Note"/>
                    </coding>
                </type>
                <subject>
                    <reference value="Patient/example-dental"/>
                    <display value="Patient A"/>
                </subject>
                <encounter>
                    <reference value="Encounter/Med-visit-1"/>
                    <display value="PCP visit"/>
                </encounter>
                <date value="2020-01-14T03:10:14Z"/>
                <author>
                    <reference value="PractitionerRole/PractitionerRole-M"/>
                    <display value="Dr. John M, MD"/>
                </author>
                <title value="Referral Note"/>
                <confidentiality value="U"/>
                <attester>
                    <mode value="legal"/>
                    <time value="2020-03-14T09:10:14Z"/>
                    <party>
                        <reference value="PractitionerRole/PractitionerRole-M"/>
                        <display value="Dr. John M, MD"/>
                    </party>
                </attester>
                <custodian>
                    <reference value="Organization/GHC-organization"/>
                    <display value="Good Health Clinic"/>
                </custodian>
                <section>
                    <title value="Allergies and Intolerances Section"/>
                    <code>
                        <coding>
                            <system value="http://loinc.org"/>
                            <code value="48765-2"/>
                            <display value="Allergies and adverse reactions Document"/>
                        </coding>
                    </code>
                    <text>
                        <status value="generated"/>
                        <div
                            xmlns="http://www.w3.org/1999/xhtml">
                            <table>
                                <tr>
                                    <td>
                                        <b>Allergen</b>
                                    </td>
                                    <td>
                                        <b>Code</b>
                                    </td>
                                    <td>
                                        <b>Manifestation</b>
                                    </td>
                                    <td>
                                        <b>Severity</b>
                                    </td>
                                </tr>
                                <tr>
                                    <td>Penicillin G</td>
                                    <td>7908</td>
                                    <td>Skin rash</td>
                                    <td>mild</td>
                                </tr>
                            </table>
                        </div>
                    </text>
                </section>
                <section>
                    <title value="Advance Directives Section"/>
                    <code>
                        <coding>
                            <system value="http://loinc.org"/>
                            <code value="42348-3"/>
                            <display value="Advance directives"/>
                        </coding>
                    </code>
                    <text>
                        <status value="generated"/>
                        <div
                            xmlns="http://www.w3.org/1999/xhtml">
                            <p>Advanced Directives text</p>
                        </div>
                    </text>
                </section>
                <section>
                    <title value="Assessment Section"/>
                    <code>
                        <coding>
                            <system value="http://loinc.org"/>
                            <code value="51848-0"/>
                            <display value="Evaluation note"/>
                        </coding>
                    </code>
                    <text>
                        <status value="generated"/>
                        <div
                            xmlns="http://www.w3.org/1999/xhtml">
                            <p>Assessment Section text</p>
                        </div>
                    </text>
                </section>
                <section>
                    <title value="Family History Section"/>
                    <code>
                        <coding>
                            <system value="http://loinc.org"/>
                            <code value="10157-6"/>
                            <display value="History of family member diseases Narrative"/>
                        </coding>
                    </code>
                    <text>
                        <status value="generated"/>
                        <div
                            xmlns="http://www.w3.org/1999/xhtml">
                            <p>Family History text</p>
                        </div>
                    </text>
                </section>
                <section>
                    <title value="Past Medical History Section"/>
                    <code>
                        <coding>
                            <system value="http://loinc.org"/>
                            <code value="11348-0"/>
                            <display value="History of Past illness Narrative"/>
                        </coding>
                    </code>
                    <text>
                        <status value="generated"/>
                        <div
                            xmlns="http://www.w3.org/1999/xhtml">
                            <p>See History of Present Illness</p>
                        </div>
                    </text>
                </section>
                <section>
                    <title value="History of Present Illness Section"/>
                    <code>
                        <coding>
                            <system value="http://loinc.org"/>
                            <code value="10164-2"/>
                            <display value="History of Present illness Narrative"/>
                        </coding>
                    </code>
                    <text>
                        <status value="generated"/>
                        <div
                            xmlns="http://www.w3.org/1999/xhtml">
                            <p>History of Present Illness text</p>
                        </div>
                    </text>
                </section>
                <section>
                    <title value="Social History Section"/>
                    <code>
                        <coding>
                            <system value="http://loinc.org"/>
                            <code value="29762-2"/>
                            <display value="Social history Narrative"/>
                        </coding>
                    </code>
                    <text>
                        <status value="generated"/>
                        <div
                            xmlns="http://www.w3.org/1999/xhtml">
                            <table>
                                <tr>
                                    <td>
                                        <b>Social History Element</b>
                                    </td>
                                    <td>
                                        <b>Description</b>
                                    </td>
                                    <td>
                                        <b>Effective Dates</b>
                                    </td>
                                </tr>
                                <tr>
                                    <td>Smoking Status</td>
                                    <td>NA</td>
                                    <td>2005/05/01 - 2020/03/28</td>
                                </tr>
                                <tr>
                                    <td>Highest Education Received</td>
                                    <td>Collect Education</td>
                                    <td>2010/05/01 - 2014/03/28</td>
                                </tr>
                                <tr>
                                    <td>Employment</td>
                                    <td>Full-time accountant</td>
                                    <td>2015/05/01 - current</td>
                                </tr>
                            </table>
                        </div>
                    </text>
                </section>
                <section>
                    <title value="General Status Section"/>
                    <code>
                        <coding>
                            <system value="http://loinc.org"/>
                            <code value="10210-3"/>
                            <display value="Physical findings of General status Narrative"/>
                        </coding>
                    </code>
                    <text>
                        <status value="generated"/>
                        <div
                            xmlns="http://www.w3.org/1999/xhtml">
                            <p>Oral Health Exam findings: Swollen gums, significant plaque buildup and significant tenderness near left lower molar</p>
                        </div>
                    </text>
                </section>
                <section>
                    <title value="Functional Status Section"/>
                    <code>
                        <coding>
                            <system value="http://loinc.org"/>
                            <code value="47420-5"/>
                            <display value="Functional status assessment note"/>
                        </coding>
                    </code>
                    <text>
                        <status value="generated"/>
                        <div
                            xmlns="http://www.w3.org/1999/xhtml">
                            <p>Functional Status text</p>
                        </div>
                    </text>
                </section>
                <section>
                    <title value="Mental Status Section"/>
                    <code>
                        <coding>
                            <system value="http://loinc.org"/>
                            <code value="10190-7"/>
                            <display value="Mental status"/>
                        </coding>
                    </code>
                    <text>
                        <status value="generated"/>
                        <div
                            xmlns="http://www.w3.org/1999/xhtml">
                            <p>Mental Status text</p>
                        </div>
                    </text>
                </section>
                <section>
                    <title value="Immunizations Section"/>
                    <code>
                        <coding>
                            <system value="http://loinc.org"/>
                            <code value="11369-6"/>
                            <display value="History of Immunization Narrative"/>
                        </coding>
                    </code>
                    <text>
                        <status value="generated"/>
                        <div
                            xmlns="http://www.w3.org/1999/xhtml">
                            <p>Immunizations text</p>
                        </div>
                    </text>
                </section>
                <section>
                    <title value="Nutrition Section"/>
                    <code>
                        <coding>
                            <system value="http://loinc.org"/>
                            <code value="61144-2"/>
                            <display value="Diet and nutrition Narrative"/>
                        </coding>
                    </code>
                    <text>
                        <status value="generated"/>
                        <div
                            xmlns="http://www.w3.org/1999/xhtml">
                            <p>Nutrition Section text</p>
                        </div>
                    </text>
                </section>
                <section>
                    <title value="Reason for Referral Section"/>
                    <code>
                        <coding>
                            <system value="http://loinc.org"/>
                            <code value="42349-1"/>
                            <display value="Reason for referral (narrative)"/>
                        </coding>
                    </code>
                    <text>
                        <status value="generated"/>
                        <div
                            xmlns="http://www.w3.org/1999/xhtml">
                            <p>Referral to Dentist for further evaluation - urgent</p>
                            <p>Establish a Dental Home</p>
                        </div>
                    </text>
                </section>
                <section>
                    <title value="Medication Section"/>
                    <code>
                        <coding>
                            <system value="http://loinc.org"/>
                            <code value="10160-0"/>
                            <display value="History of Medication use Narrative"/>
                        </coding>
                    </code>
                    <text>
                        <status value="generated"/>
                        <div
                            xmlns="http://www.w3.org/1999/xhtml">
                            <table>
                                <tr>
                                    <td>
                                        <b>Medication</b>
                                    </td>
                                    <td>
                                        <b>Directions</b>
                                    </td>
                                    <td>
                                        <b>Start Date</b>
                                    </td>
                                    <td>
                                        <b>Status</b>
                                    </td>
                                    <td>
                                        <b>Indications</b>
                                    </td>
                                    <td>
                                        <b>Fill Instructions</b>
                                    </td>
                                </tr>
                                <tr>
                                    <td>Lisinopril 10 mg tab</td>
                                    <td>1 tab once/day</td>
                                    <td/>
                                    <td>Active</td>
                                    <td/>
                                    <td>Generic substitution allowed</td>
                                </tr>
                            </table>
                        </div>
                    </text>
                </section>
                <section>
                    <title value="Medical Equipment Section"/>
                    <code>
                        <coding>
                            <system value="http://loinc.org"/>
                            <code value="46264-8"/>
                            <display value="History of medical device use"/>
                        </coding>
                    </code>
                    <text>
                        <status value="generated"/>
                        <div
                            xmlns="http://www.w3.org/1999/xhtml">
                            <p>Medical Equipment text</p>
                        </div>
                    </text>
                </section>
                <section>
                    <title value="Plan of Treatment Section"/>
                    <code>
                        <coding>
                            <system value="http://loinc.org"/>
                            <code value="18776-5"/>
                            <display value="Plan of care note"/>
                        </coding>
                    </code>
                    <text>
                        <status value="generated"/>
                        <div
                            xmlns="http://www.w3.org/1999/xhtml">
                            <table>
                                <tr>
                                    <td>
                                        <b>Planned Activity</b>
                                    </td>
                                    <td>
                                        <b>Period</b>
                                    </td>
                                    <td>
                                        <b>Status</b>
                                    </td>
                                </tr>
                                <tr>
                                    <td>Referral to Dentist</td>
                                    <td>2020/03/16</td>
                                    <td>Completed</td>
                                </tr>
                                <tr>
                                    <td>Follow-up in 3 months</td>
                                    <td>2020/03/16</td>
                                    <td>Completed</td>
                                </tr>
                            </table>
                        </div>
                    </text>
                </section>
                <section>
                    <title value="Problem Section"/>
                    <code>
                        <coding>
                            <system value="http://loinc.org"/>
                            <code value="11450-4"/>
                            <display value="Problem list - Reported"/>
                        </coding>
                    </code>
                    <text>
                        <status value="generated"/>
                        <div
                            xmlns="http://www.w3.org/1999/xhtml">
                            <table>
                                <tr>
                                    <td>
                                        <b>Problem Name</b>
                                    </td>
                                    <td>
                                        <b>Type</b>
                                    </td>
                                    <td>
                                        <b>Onset Date</b>
                                    </td>
                                    <td>
                                        <b>Abatement Date</b>
                                    </td>
                                    <td>
                                        <b>Status</b>
                                    </td>
                                </tr>
                                <tr>
                                    <td>Mild, Hypertension</td>
                                    <td>Condition</td>
                                    <td>2019-04-01</td>
                                    <td>2016-04-14</td>
                                    <td>Active</td>
                                </tr>
                                <tr>
                                    <td>Tooth pain in left lower jaw</td>
                                    <td>Condition</td>
                                    <td>2019-04-01</td>
                                    <td>2016-04-14</td>
                                    <td>Active</td>
                                </tr>
                                <tr>
                                    <td>Bleeding gums, occasional</td>
                                    <td>Condition</td>
                                    <td>2019-04-01</td>
                                    <td>2016-04-14</td>
                                    <td>Active</td>
                                </tr>
                            </table>
                        </div>
                    </text>
                </section>
                <section>
                    <title value="Procedures Section"/>
                    <code>
                        <coding>
                            <system value="http://loinc.org"/>
                            <code value="47519-4"/>
                            <display value="History of Procedures Document"/>
                        </coding>
                    </code>
                    <text>
                        <status value="generated"/>
                        <div
                            xmlns="http://www.w3.org/1999/xhtml">
                            <p>Procedures text</p>
                        </div>
                    </text>
                </section>
                <section>
                    <title value="Results Section"/>
                    <code>
                        <coding>
                            <system value="http://loinc.org"/>
                            <code value="30954-2"/>
                            <display value="Relevant diagnostic tests/laboratory data Narrative"/>
                        </coding>
                    </code>
                    <text>
                        <status value="generated"/>
                        <div
                            xmlns="http://www.w3.org/1999/xhtml">
                            <p>Results text</p>
                        </div>
                    </text>
                </section>
                <section>
                    <title value="Vital Signs Section"/>
                    <code>
                        <coding>
                            <system value="http://loinc.org"/>
                            <code value="8716-3"/>
                            <display value="Vital signs"/>
                        </coding>
                    </code>
                    <text>
                        <status value="generated"/>
                        <div
                            xmlns="http://www.w3.org/1999/xhtml">
                            <table>
                                <tr>
                                    <td>
                                        <b>Vital Sign</b>
                                    </td>
                                    <td>
                                        <b>Date</b>
                                    </td>
                                    <td>
                                        <b>Value</b>
                                    </td>
                                </tr>
                                <tr>
                                    <td>Temperature</td>
                                    <td>2020/04/15</td>
                                    <td>98.5</td>
                                </tr>
                                <tr>
                                    <td>Pulse</td>
                                    <td>2020/04/15</td>
                                    <td>78</td>
                                </tr>
                                <tr>
                                    <td>Respiration</td>
                                    <td>2020/04/15</td>
                                    <td>20</td>
                                </tr>
                            </table>
                        </div>
                    </text>
                </section>
            </Composition>
        </resource>
    </entry>
    <entry>
        <fullUrl value="Patient/example-dental"/>
        <resource>
            <Patient>
                <id value="example-dental"/>
                <text>
                    <status value="generated"/>
                    <div
                        xmlns="http://www.w3.org/1999/xhtml">
                        <div class="hapiHeaderText">Patient 
	            
                            
                            
                            <b>A </b>
                        </div>
                        <table class="hapiPropertyTable">
                            <tbody>
                                <tr>
                                    <td>Identifier</td>
                                    <td>5152020</td>
                                </tr>
                                <tr>
                                    <td>Address</td>
                                    <td>
                                        <span>123 Test Dr. </span>
                                        <br/>
                                        <span>Denver </span>
                                        <span>CO </span>
                                        <span>US </span>
                                    </td>
                                </tr>
                                <tr>
                                    <td>Date of birth</td>
                                    <td>
                                        <span>01 January 1990</span>
                                    </td>
                                </tr>
                            </tbody>
                        </table>
                    </div>
                </text>
                <extension url="http://hl7.org/fhir/us/core/StructureDefinition/us-core-race">
                    <extension url="ombCategory">
                        <valueCoding>
                            <system value="urn:oid:2.16.840.1.113883.6.238"/>
                            <code value="2106-3"/>
                            <display value="White"/>
                        </valueCoding>
                    </extension>
                    <extension url="detailed">
                        <valueCoding>
                            <system value="urn:oid:2.16.840.1.113883.6.238"/>
                            <code value="1516-4"/>
                            <display value="Zuni"/>
                        </valueCoding>
                    </extension>
                    <extension url="text">
                        <valueString value="Mixed"/>
                    </extension>
                </extension>
                <extension url="http://hl7.org/fhir/us/core/StructureDefinition/us-core-ethnicity">
                    <extension url="ombCategory">
                        <valueCoding>
                            <system value="urn:oid:2.16.840.1.113883.6.238"/>
                            <code value="2135-2"/>
                            <display value="Hispanic or Latino"/>
                        </valueCoding>
                    </extension>
                    <extension url="text">
                        <valueString value="Hispanic or Latino"/>
                    </extension>
                </extension>
                <extension url="http://hl7.org/fhir/us/core/StructureDefinition/us-core-birthsex">
                    <valueCode value="M"/>
                </extension>
                <identifier>
                    <use value="usual"/>
                    <type>
                        <coding>
                            <system value="http://terminology.hl7.org/CodeSystem/v2-0203"/>
                            <code value="MR"/>
                            <display value="Medical Record Number"/>
                        </coding>
                        <text value="Medical Record Number"/>
                    </type>
                    <system value="http://clinic.goodhealth.org"/>
                    <value value="5152020"/>
                </identifier>
                <active value="true"/>
                <name>
                    <family value="A"/>
                    <given value="Patient"/>
                </name>
                <telecom>
                    <system value="phone"/>
                    <value value="123-456-7890"/>
                    <use value="home"/>
                </telecom>
                <telecom>
                    <system value="email"/>
                    <value value="testA@email.com"/>
                </telecom>
                <gender value="male"/>
                <birthDate value="1990-01-01"/>
                <address>
                    <line value="123 Test Dr."/>
                    <city value="Denver"/>
                    <state value="CO"/>
                    <postalCode value="80204"/>
                    <country value="US"/>
                </address>
            </Patient>
        </resource>
    </entry>
    <entry>
        <fullUrl value="PractitionerRole/PractitionerRole-M"/>
        <resource>
            <PractitionerRole>
                <id value="PractitionerRole-M"/>
                <practitioner>
                    <reference value="Practitioner/practitioner-M"/>
                    <display value="Dr. John M"/>
                </practitioner>
                <organization>
                    <reference value="Organization/GHC-organization"/>
                    <display value="Good Health Clinic"/>
                </organization>
                <code>
                    <coding>
                        <system value="http://nucc.org/provider-taxonomy"/>
                        <code value="207Q00000X"/>
                        <display value="Family Medicine"/>
                    </coding>
                </code>
                <specialty>
                    <coding>
                        <system value="http://nucc.org/provider-taxonomy"/>
                        <code value="1223G0001X"/>
                        <display value="General Practice"/>
                    </coding>
                </specialty>
                <endpoint>
                    <reference value="http://52.90.126.238:8080/fhir/baseR4/Endpoint/Endpoint-1"/>
                    <display value="Good Health Clinic Physicians Organization"/>
                </endpoint>
            </PractitionerRole>
        </resource>
    </entry>
    <entry>
        <fullUrl value="Practitioner/Practitioner-M"/>
        <resource>
            <Practitioner>
                <id value="practitioner-M"/>
                <identifier>
                    <system value="http://hl7.org.fhir/sid/us-npi"/>
                    <value value="1234569999"/>
                </identifier>
                <name>
                    <family value="M"/>
                    <given value="John"/>
                    <prefix value="Dr"/>
                </name>
                <telecom>
                    <system value="phone"/>
                    <value value="303-303-6443"/>
                    <use value="work"/>
                </telecom>
                <gender value="male"/>
                <birthDate value="1975-06-09"/>
                <qualification>
                    <identifier>
                        <use value="official"/>
                        <type>
                            <coding>
                                <system value="http://terminology.hl7.org/CodeSystem/v2-0203"/>
                                <code value="MD"/>
                                <display value="Medical License number"/>
                            </coding>
                            <text value="Missouri Medical License"/>
                        </type>
                        <system value="http://missouri.gov/fhir/medical-license"/>
                        <value value="MO-4000"/>
                        <assigner>
                            <display value="State of Missouri"/>
                        </assigner>
                    </identifier>
                    <code>
                        <coding>
                            <system value="http://missouri.gov/license-type"/>
                            <code value="8000"/>
                            <display value="Medical Doctor"/>
                        </coding>
                    </code>
                    <issuer>
                        <display value="Missouri Department of Licensing and Regulatory Affairs"/>
                    </issuer>
                </qualification>
            </Practitioner>
        </resource>
    </entry>
    <entry>
        <fullUrl value="Organization/GHC-organization"/>
        <resource>
            <Organization>
                <id value="GHC-organization"/>
                <identifier>
                    <system value="http://hl7.org.fhir/sid/us-npi"/>
                    <value value="1316452725"/>
                </identifier>
                <active value="true"/>
                <type>
                    <coding>
                        <system value="http://terminology.hl7.org/CodeSystem/organization-type"/>
                        <code value="prov"/>
                        <display value="Healthcare Provider"/>
                    </coding>
                </type>
                <name value="Good Health Clinic"/>
                <telecom>
                    <system value="phone"/>
                    <value value="(+1) 555-677-7777"/>
                </telecom>
                <telecom>
                    <system value="email"/>
                    <value value="customer-service@GHclinic.org"/>
                </telecom>
                <address>
                    <line value="7551 W Alameda Ave"/>
                    <city value="Lakewood"/>
                    <state value="CO"/>
                    <postalCode value="80226"/>
                    <country value="USA"/>
                </address>
            </Organization>
        </resource>
    </entry>
    <entry>
        <fullUrl value="Encounter/Med-visit-1"/>
        <resource>
            <Encounter>
                <id value="Med-visit-1"/>
                <status value="finished"/>
                <class>
                    <system value="http://terminology.hl7.org/CodeSystem/v3-ActCode"/>
                    <code value="AMB"/>
                    <display value="ambulatory"/>
                </class>
                <type>
                    <coding>
                        <system value="http://www.ama-assn.org/go/cpt"/>
                        <code value="99201"/>
                    </coding>
                    <text value="Office Visit"/>
                </type>
                <priority>
                    <coding>
                        <system value="http://terminology.hl7.org/CodeSystem/v3-ActPriority"/>
                        <code value="R"/>
                        <display value="routine"/>
                    </coding>
                </priority>
                <subject>
                    <reference value="Patient/example-dental"/>
                </subject>
                <period>
                    <start value="2020-01-14T15:00:14-05:00"/>
                    <end value="2020-01-14T15:30:14-05:00"/>
                </period>
            </Encounter>
        </resource>
    </entry>
</Bundle>